{
    "resourceType": "Bundle",
    "type": "transaction",
    "entry": [
        {
            "fullUrl": "urn:uuid:344c386e-e715-4137-addf-651bf546e31f",
            "resource": {
                "resourceType": "Binary",
                "contentType": "text/plain",
                "data": ""
            },
            "request": {
                "method": "PUT",
                "url": "Binary/344c386e-e715-4137-addf-651bf546e31f"
            }
        },
        {
            "fullUrl": "urn:uuid:7f8b25f9-f326-43d3-b0c7-3310e4db919d",
            "resource": {
                "resourceType": "Binary",
                "contentType": "text/plain",
                "data": ""
            },
            "request": {
                "method": "PUT",
                "url": "Binary/7f8b25f9-f326-43d3-b0c7-3310e4db919d"
            }
        },
        {
            "fullUrl": "urn:uuid:a803a474-07c9-4bca-b13a-790e71e94966",
            "resource": {
                "resourceType": "Binary",
                "contentType": "text/plain",
                "data": ""
            },
            "request": {
                "method": "PUT",
                "url": "Binary/a803a474-07c9-4bca-b13a-790e71e94966"
            }
        },
        {
            "fullUrl": "urn:uuid:b068999a-7eb0-4bcc-9f0e-8abf67f24300",
            "resource": {
                "resourceType": "Binary",
                "contentType": "text/plain",
                "data": ""
            },
            "request": {
                "method": "PUT",
                "url": "Binary/b068999a-7eb0-4bcc-9f0e-8abf67f24300"
            }
        },
        {
            "fullUrl": "urn:uuid:8ea05091-e3e6-4f63-bbe0-649053610055",
            "resource": {
                "resourceType": "Binary",
                "contentType": "text/plain",
                "data": ""
            },
            "request": {
                "method": "PUT",
                "url": "Binary/8ea05091-e3e6-4f63-bbe0-649053610055"
            }
        },
        {
            "fullUrl": "urn:uuid:d55ace8f-1669-4c02-9acd-9b21f4cfa4cc",
            "resource": {
                "resourceType": "Binary",
                "contentType": "text/plain",
                "data": ""
            },
            "request": {
                "method": "PUT",
                "url": "Binary/d55ace8f-1669-4c02-9acd-9b21f4cfa4cc"
            }
        },
        {
            "fullUrl": "urn:uuid:15441649-a7a6-49ad-a534-6606ce9dc0b7",
            "resource": {
                "resourceType": "Binary",
                "contentType": "text/plain",
                "data": ""
            },
            "request": {
                "method": "PUT",
                "url": "Binary/15441649-a7a6-49ad-a534-6606ce9dc0b7"
            }
        },
        {
            "fullUrl": "urn:uuid:e5617196-e82a-4577-a59f-798bdf37f74d",
            "resource": {
                "resourceType": "Binary",
                "contentType": "text/plain",
                "data": ""
            },
            "request": {
                "method": "PUT",
                "url": "Binary/e5617196-e82a-4577-a59f-798bdf37f74d"
            }
        },
        {
            "fullUrl": "urn:uuid:c6dfc541-967a-42d5-8dd3-68ba1d52ae7f",
            "resource": {
                "resourceType": "Binary",
                "contentType": "text/plain",
                "data": ""
            },
            "request": {
                "method": "PUT",
                "url": "Binary/c6dfc541-967a-42d5-8dd3-68ba1d52ae7f"
            }
        },
        {
            "fullUrl": "urn:uuid:203873fb-7815-4be8-9925-143850dea4af",
            "resource": {
                "resourceType": "Binary",
                "contentType": "text/plain",
                "data": ""
            },
            "request": {
                "method": "PUT",
                "url": "Binary/203873fb-7815-4be8-9925-143850dea4af"
            }
        },
        {
            "fullUrl": "urn:uuid:dbf4168d-4cac-4509-8eba-0dc6c628bfb8",
            "resource": {
                "resourceType": "Binary",
                "contentType": "text/plain",
                "data": ""
            },
            "request": {
                "method": "PUT",
                "url": "Binary/dbf4168d-4cac-4509-8eba-0dc6c628bfb8"
            }
        },
        {
            "fullUrl": "urn:uuid:0564a713-3fea-4f50-845e-091b7f0cb47c",
            "resource": {
                "resourceType": "Binary",
                "contentType": "text/plain",
                "data": ""
            },
            "request": {
                "method": "PUT",
                "url": "Binary/0564a713-3fea-4f50-845e-091b7f0cb47c"
            }
        },
        {
            "fullUrl": "urn:uuid:597ebe5e-173d-42c7-a943-6ce7a22fd1ec",
            "resource": {
                "resourceType": "Binary",
                "contentType": "text/plain",
                "data": ""
            },
            "request": {
                "method": "PUT",
                "url": "Binary/597ebe5e-173d-42c7-a943-6ce7a22fd1ec"
            }
        },
        {
            "fullUrl": "urn:uuid:cd78b9d5-0419-4fae-af1e-860edcbf79eb",
            "resource": {
                "resourceType": "Binary",
                "contentType": "text/plain",
                "data": ""
            },
            "request": {
                "method": "PUT",
                "url": "Binary/cd78b9d5-0419-4fae-af1e-860edcbf79eb"
            }
        },
        {
            "fullUrl": "urn:uuid:89dac51a-fe28-4eed-a5b8-fcddef8d01a9",
            "resource": {
                "author": [
                    {
                        "reference": "Practitioner/c4a8d5ab-6c15-5cbe-9ff2-565a7128c281"
                    }
                ],
                "resourceType": "Composition",
                "identifier": [
                    {
                        "use": "official",
                        "value": "app"
                    }
                ],
                "status": "final",
                "type": {
                    "coding": [
                        {
                            "system": "http://snomed.info/sct",
                            "code": "1156600005",
                            "display": "Device setting parameter"
                        }
                    ]
                },
                "date": "2022-09-16",
                "title": "Device configurations",
                "text": "Device configurations",
                "confidentiality": "L",
                "section": [
                    {
                        "title": "Application configuration",
                        "text": "Application configuration",
                        "focus": {
                            "reference": "Binary/344c386e-e715-4137-addf-651bf546e31f",
                            "identifier": {
                                "value": "application"
                            }
                        },
                        "mode": "working",
                        "author": [
                            {
                                "reference": "Practitioner/c4a8d5ab-6c15-5cbe-9ff2-565a7128c281"
                            }
                        ]
                    },
                    {
                        "title": "Sync configuration",
                        "text": "Sync configuration",
                        "focus": {
                            "reference": "Binary/7f8b25f9-f326-43d3-b0c7-3310e4db919d",
                            "identifier": {
                                "value": "sync"
                            }
                        },
                        "mode": "working",
                        "author": [
                            {
                                "reference": "Practitioner/c4a8d5ab-6c15-5cbe-9ff2-565a7128c281"
                            }
                        ]
                    },
                    {
                        "title": "Navigation configuration",
                        "text": "Navigation configuration",
                        "focus": {
                            "reference": "Binary/a803a474-07c9-4bca-b13a-790e71e94966",
                            "identifier": {
                                "value": "navigation"
                            }
                        },
                        "mode": "working",
                        "author": [
                            {
                                "reference": "Practitioner/c4a8d5ab-6c15-5cbe-9ff2-565a7128c281"
                            }
                        ]
                    },
                    {
                        "title": "Register configurations",
                        "mode": "working",
                        "section": [
                            {
                                "title": "Household register configuration",
                                "text": "Household register configuration",
                                "focus": {
                                    "reference": "Binary/b068999a-7eb0-4bcc-9f0e-8abf67f24300",
                                    "identifier": {
                                        "value": "householdRegister"
                                    }
                                },
                                "author": [
                                    {
                                        "reference": "Practitioner/c4a8d5ab-6c15-5cbe-9ff2-565a7128c281"
                                    }
                                ]
                            },
                            {
                                "title": "ANC register configuration",
                                "text": "ANC register configuration",
                                "focus": {
                                    "reference": "Binary/8ea05091-e3e6-4f63-bbe0-649053610055",
                                    "identifier": {
                                        "value": "ancRegister"
                                    }
                                },
                                "author": [
                                    {
                                        "reference": "Practitioner/c4a8d5ab-6c15-5cbe-9ff2-565a7128c281"
                                    }
                                ]
                            },
                            {
                                "title": "Child register configuration",
                                "text": "Child register configuration",
                                "focus": {
                                    "reference": "Binary/d55ace8f-1669-4c02-9acd-9b21f4cfa4cc",
                                    "identifier": {
                                        "value": "childRegister"
                                    }
                                },
                                "author": [
                                    {
                                        "reference": "Practitioner/c4a8d5ab-6c15-5cbe-9ff2-565a7128c281"
                                    }
                                ]
                            },
                            {
                                "title": "Task register configuration",
                                "text": "Task register configuration",
                                "focus": {
                                    "reference": "Binary/15441649-a7a6-49ad-a534-6606ce9dc0b7",
                                    "identifier": {
                                        "value": "taskRegister"
                                    }
                                },
                                "author": [
                                    {
                                        "reference": "Practitioner/c4a8d5ab-6c15-5cbe-9ff2-565a7128c281"
                                    }
                                ]
                            },
                            {
                                "title": "CMNTD register configuration",
                                "text": "CMNTD register configuration",
                                "focus": {
                                    "reference": "Binary/e5617196-e82a-4577-a59f-798bdf37f74d",
                                    "identifier": {
                                        "value": "cmntdRegister"
                                    }
                                },
                                "author": [
                                    {
                                        "reference": "Practitioner/c4a8d5ab-6c15-5cbe-9ff2-565a7128c281"
                                    }
                                ]
                            },
                            {
                                "title": "FP register configuration",
                                "text": "FP register configuration",
                                "focus": {
                                    "reference": "Binary/c6dfc541-967a-42d5-8dd3-68ba1d52ae7f",
                                    "identifier": {
                                        "value": "fpRegister"
                                    }
                                },
                                "author": [
                                    {
                                        "reference": "Practitioner/c4a8d5ab-6c15-5cbe-9ff2-565a7128c281"
                                    }
                                ]
                            },
                            {
                                "title": "HIV register configuration",
                                "text": "HIV register configuration",
                                "focus": {
                                    "reference": "Binary/203873fb-7815-4be8-9925-143850dea4af",
                                    "identifier": {
                                        "value": "hivRegister"
                                    }
                                },
                                "author": [
                                    {
                                        "reference": "Practitioner/c4a8d5ab-6c15-5cbe-9ff2-565a7128c281"
                                    }
                                ]
                            },
                            {
                                "title": "Mental Health register configuration",
                                "text": "Mental Health register configuration",
                                "focus": {
                                    "reference": "Binary/dbf4168d-4cac-4509-8eba-0dc6c628bfb8",
                                    "identifier": {
                                        "value": "mentalHealthRegister"
                                    }
                                },
                                "author": [
                                    {
                                        "reference": "Practitioner/c4a8d5ab-6c15-5cbe-9ff2-565a7128c281"
                                    }
                                ]
                            },
                            {
                                "title": "PNC register configuration",
                                "text": "PNC register configuration",
                                "focus": {
                                    "reference": "Binary/0564a713-3fea-4f50-845e-091b7f0cb47c",
                                    "identifier": {
                                        "value": "pncRegister"
                                    }
                                },
                                "author": [
                                    {
                                        "reference": "Practitioner/c4a8d5ab-6c15-5cbe-9ff2-565a7128c281"
                                    }
                                ]
                            },
                            {
                                "title": "Sick Child register configuration",
                                "text": "Sick Child register configuration",
                                "focus": {
                                    "reference": "Binary/597ebe5e-173d-42c7-a943-6ce7a22fd1ec",
                                    "identifier": {
                                        "value": "sickChildRegister"
                                    }
                                },
                                "author": [
                                    {
                                        "reference": "Practitioner/c4a8d5ab-6c15-5cbe-9ff2-565a7128c281"
                                    }
                                ]
                            },
                            {
                                "title": "TB register configuration",
                                "text": "TB register configuration",
                                "focus": {
                                    "reference": "Binary/cd78b9d5-0419-4fae-af1e-860edcbf79eb",
                                    "identifier": {
                                        "value": "tbRegister"
                                    }
                                },
                                "author": [
                                    {
                                        "reference": "Practitioner/c4a8d5ab-6c15-5cbe-9ff2-565a7128c281"
                                    }
                                ]
                            }
                        ]
                    }
                ]
            },
            "request": {
                "method": "PUT",
                "url": "Composition/89dac51a-fe28-4eed-a5b8-fcddef8d01a9"
            }
        }
    ]
}